pos,corr_resp,trials.thisRepN,trials.thisTrialN,trials.thisN,trials.thisIndex,trials_2.thisRepN,trials_2.thisTrialN,trials_2.thisN,trials_2.thisIndex,fixation.started,line1.started,line2.started,line3.started,line4.started,fixation.stopped,probe.started,key_resp.started,key_resp.keys,key_resp.corr,key_resp.rt,probe.stopped,participant,session,date,expName,psychopyVersion,frameRate
-50,x,0,0,0,0,,,,,9.787719435,10.77626057,10.77626057,10.77626057,10.77626057,10.7911905,11.77492021,11.77492021,x,1,0.751638625,,764520,1,2022-10-06_12h52.18.054,motorsequenceexperiment3,2022.2.2,60.36327476
150,v,0,1,1,1,,,,,12.54129855,13.54129032,13.54129032,13.54129032,13.54129032,13.54129032,14.54103482,14.54103482,v,1,0.802941693,,764520,1,2022-10-06_12h52.18.054,motorsequenceexperiment3,2022.2.2,60.36327476
50,c,0,2,2,2,,,,,15.35761265,16.35824894,16.35824894,16.35824894,16.35824894,16.35824894,17.35781418,17.35781418,c,1,1.067686387,18.35830447,764520,1,2022-10-06_12h52.18.054,motorsequenceexperiment3,2022.2.2,60.36327476
-150,z,0,3,3,3,,,,,18.44233356,19.44116375,19.44116375,19.44116375,19.44116375,19.44116375,20.44106828,20.44106828,z,1,0.419914328,,764520,1,2022-10-06_12h52.18.054,motorsequenceexperiment3,2022.2.2,60.36327476
-50,x,1,0,4,0,,,,,20.87503069,21.87428802,21.87428802,21.87428802,21.87428802,21.87428802,22.87416289,22.87416289,x,1,0.768616947,,764520,1,2022-10-06_12h52.18.054,motorsequenceexperiment3,2022.2.2,60.36327476
150,v,1,1,5,1,,,,,23.65774642,24.65823558,24.65823558,24.65823558,24.65823558,24.65823558,25.65839995,25.65839995,v,1,1.219464936,26.67414065,764520,1,2022-10-06_12h52.18.054,motorsequenceexperiment3,2022.2.2,60.36327476
50,c,1,2,6,2,,,,,26.89095669,27.90851901,27.90851901,27.90851901,27.90851901,27.90851901,28.89100433,28.89100433,c,1,0.685874068,,764520,1,2022-10-06_12h52.18.054,motorsequenceexperiment3,2022.2.2,60.36327476
-150,z,1,3,7,3,,,,,29.59109162,30.59125598,30.59125598,30.59125598,30.59125598,30.59125598,31.59213591,31.59213591,z,1,0.417544202,,764520,1,2022-10-06_12h52.18.054,motorsequenceexperiment3,2022.2.2,60.36327476
-50,x,2,0,8,0,,,,,32.02456575,33.0244838,33.0244838,33.0244838,33.0244838,33.0244838,34.02427792,34.02427792,x,1,0.451310908,,764520,1,2022-10-06_12h52.18.054,motorsequenceexperiment3,2022.2.2,60.36327476
150,v,2,1,9,1,,,,,34.49112918,35.49092892,35.49092892,35.49092892,35.49092892,35.49092892,36.49107089,36.49107089,v,1,0.803140115,,764520,1,2022-10-06_12h52.18.054,motorsequenceexperiment3,2022.2.2,60.36327476
50,c,2,2,10,2,,,,,37.30755492,38.30800816,38.30800816,38.30800816,38.30800816,38.30800816,39.30722717,39.30722717,c,1,0.469797285,,764520,1,2022-10-06_12h52.18.054,motorsequenceexperiment3,2022.2.2,60.36327476
-150,z,2,3,11,3,,,,,39.79058758,40.7919765,40.7919765,40.7919765,40.7919765,40.7919765,41.79189223,41.79189223,z,1,0.319011677,,764520,1,2022-10-06_12h52.18.054,motorsequenceexperiment3,2022.2.2,60.36327476
-50,x,3,0,12,0,,,,,42.12477712,43.12423352,43.12423352,43.12423352,43.12423352,43.12423352,44.1245204,44.1245204,x,1,0.718119365,,764520,1,2022-10-06_12h52.18.054,motorsequenceexperiment3,2022.2.2,60.36327476
150,v,3,1,13,1,,,,,44.85754191,45.85771666,45.85771666,45.85771666,45.85771666,45.85771666,46.85816732,46.85816732,b,0,0.700807094,,764520,1,2022-10-06_12h52.18.054,motorsequenceexperiment3,2022.2.2,60.36327476
50,c,3,2,14,2,,,,,47.5742935,48.57550614,48.57550614,48.57550614,48.57550614,48.57550614,49.57434035,49.57434035,c,1,1.151694232,50.57451133,764520,1,2022-10-06_12h52.18.054,motorsequenceexperiment3,2022.2.2,60.36327476
-150,z,3,3,15,3,,,,,50.74060047,51.74068533,51.74068533,51.74068533,51.74068533,51.74068533,52.74202237,52.74202237,z,1,0.851692759,,764520,1,2022-10-06_12h52.18.054,motorsequenceexperiment3,2022.2.2,60.36327476
-50,x,4,0,16,0,,,,,53.60706614,54.607428,54.607428,54.607428,54.607428,54.607428,55.60716813,55.60716813,x,1,0.68533714,,764520,1,2022-10-06_12h52.18.054,motorsequenceexperiment3,2022.2.2,60.36327476
150,v,4,1,17,1,,,,,56.30736196,57.30857159,57.30857159,57.30857159,57.30857159,57.30857159,58.30733656,58.30733656,v,1,0.603110734,,764520,1,2022-10-06_12h52.18.054,motorsequenceexperiment3,2022.2.2,60.36327476
50,c,4,2,18,2,,,,,58.9237194,59.9246784,59.9246784,59.9246784,59.9246784,59.9246784,60.92465952,60.92465952,c,1,0.451298388,,764520,1,2022-10-06_12h52.18.054,motorsequenceexperiment3,2022.2.2,60.36327476
-150,z,4,3,19,3,,,,,61.39063458,62.39065635,62.39065635,62.39065635,62.39065635,62.39065635,63.39135365,63.39135365,z,1,0.767865003,,764520,1,2022-10-06_12h52.18.054,motorsequenceexperiment3,2022.2.2,60.36327476
-50,x,5,0,20,0,,,,,64.17388149,65.17434423,65.17434423,65.17434423,65.17434423,65.17434423,66.17384688,66.17384688,x,1,0.535169752,,764520,1,2022-10-06_12h52.18.054,motorsequenceexperiment3,2022.2.2,60.36327476
150,v,5,1,21,1,,,,,66.72398064,67.72400374,67.72400374,67.72400374,67.72400374,67.72400374,68.72558568,68.72558568,v,1,0.433754427,,764520,1,2022-10-06_12h52.18.054,motorsequenceexperiment3,2022.2.2,60.36327476
50,c,5,2,22,2,,,,,69.17397823,70.17445665,70.17445665,70.17445665,70.17445665,70.17445665,71.17369626,71.17369626,c,1,0.285202915,,764520,1,2022-10-06_12h52.18.054,motorsequenceexperiment3,2022.2.2,60.36327476
-150,z,5,3,23,3,,,,,71.47390412,72.47383639,72.47383639,72.47383639,72.47383639,72.47383639,73.47560346,73.47560346,z,1,0.216779731,,764520,1,2022-10-06_12h52.18.054,motorsequenceexperiment3,2022.2.2,60.36327476
-50,x,6,0,24,0,,,,,73.70720019,74.70716396,74.70716396,74.70716396,74.70716396,74.70716396,75.707456,75.707456,x,1,0.31842372,,764520,1,2022-10-06_12h52.18.054,motorsequenceexperiment3,2022.2.2,60.36327476
150,v,6,1,25,1,,,,,76.04041179,77.04059232,77.04059232,77.04059232,77.04059232,77.04059232,78.04023933,78.04023933,v,1,0.287163069,,764520,1,2022-10-06_12h52.18.054,motorsequenceexperiment3,2022.2.2,60.36327476
50,c,6,2,26,2,,,,,78.33965046,79.34039149,79.34039149,79.34039149,79.34039149,79.34039149,80.34125895,80.34125895,c,1,0.301039337,,764520,1,2022-10-06_12h52.18.054,motorsequenceexperiment3,2022.2.2,60.36327476
-150,z,6,3,27,3,,,,,80.65707397,81.65719466,81.65719466,81.65719466,81.65719466,81.65719466,82.6575478,82.6575478,z,1,0.317884437,,764520,1,2022-10-06_12h52.18.054,motorsequenceexperiment3,2022.2.2,60.36327476
-50,x,7,0,28,0,,,,,82.990392,83.99087544,83.99087544,83.99087544,83.99087544,83.99087544,84.99083383,84.99083383,x,1,0.368775452,,764520,1,2022-10-06_12h52.18.054,motorsequenceexperiment3,2022.2.2,60.36327476
150,v,7,1,29,1,,,,,85.37437085,86.37387687,86.37387687,86.37387687,86.37387687,86.37387687,87.37362599,87.37362599,v,1,0.385668258,,764520,1,2022-10-06_12h52.18.054,motorsequenceexperiment3,2022.2.2,60.36327476
50,c,7,2,30,2,,,,,87.77369707,88.77373722,88.77373722,88.77373722,88.77373722,88.77373722,89.77450619,89.77450619,c,1,0.334420143,,764520,1,2022-10-06_12h52.18.054,motorsequenceexperiment3,2022.2.2,60.36327476
-150,z,7,3,31,3,,,,,90.12366353,91.1237805,91.1237805,91.1237805,91.1237805,91.1237805,92.12434365,92.12434365,z,1,0.351259729,,764520,1,2022-10-06_12h52.18.054,motorsequenceexperiment3,2022.2.2,60.36327476
-50,x,8,0,32,0,,,,,92.49048431,93.49032238,93.49032238,93.49032238,93.49032238,93.49032238,94.4908033,94.4908033,x,1,0.384267182,,764520,1,2022-10-06_12h52.18.054,motorsequenceexperiment3,2022.2.2,60.36327476
150,v,8,1,33,1,,,,,94.89025396,95.89024624,95.89024624,95.89024624,95.89024624,95.89024624,96.89081336,96.89081336,v,1,0.352485163,,764520,1,2022-10-06_12h52.18.054,motorsequenceexperiment3,2022.2.2,60.36327476
50,c,8,2,34,2,,,,,97.25631727,98.25679181,98.25679181,98.25679181,98.25679181,98.25679181,99.25741955,99.25741955,c,1,0.403698736,,764520,1,2022-10-06_12h52.18.054,motorsequenceexperiment3,2022.2.2,60.36327476
-150,z,8,3,35,3,,,,,99.67295126,100.6735638,100.6735638,100.6735638,100.6735638,100.6735638,101.6744565,101.6744565,z,1,0.500783448,,764520,1,2022-10-06_12h52.18.054,motorsequenceexperiment3,2022.2.2,60.36327476
-50,x,9,0,36,0,,,,,102.1901047,103.1901559,103.1901559,103.1901559,103.1901559,103.1901559,104.1906402,104.1906402,x,1,0.301291718,,764520,1,2022-10-06_12h52.18.054,motorsequenceexperiment3,2022.2.2,60.36327476
150,v,9,1,37,1,,,,,104.5067148,105.506775,105.506775,105.506775,105.506775,105.506775,106.5063443,106.5063443,v,1,0.402305036,,764520,1,2022-10-06_12h52.18.054,motorsequenceexperiment3,2022.2.2,60.36327476
50,c,9,2,38,2,,,,,106.9233679,107.9232947,107.9232947,107.9232947,107.9232947,107.9232947,108.9239756,108.9239756,c,1,0.353641939,,764520,1,2022-10-06_12h52.18.054,motorsequenceexperiment3,2022.2.2,60.36327476
-150,z,9,3,39,3,,,,,109.2903166,110.2902324,110.2902324,110.2902324,110.2902324,110.2902324,111.2899329,111.2899329,z,1,0.518375943,,764520,1,2022-10-06_12h52.18.054,motorsequenceexperiment3,2022.2.2,60.36327476
-50,x,10,0,40,0,,,,,111.8232518,112.8234158,112.8234158,112.8234158,112.8234158,112.8234158,113.8230098,113.8230098,x,1,0.402025849,,764520,1,2022-10-06_12h52.18.054,motorsequenceexperiment3,2022.2.2,60.36327476
150,v,10,1,41,1,,,,,114.2398978,115.2408621,115.2408621,115.2408621,115.2408621,115.2408621,116.2412763,116.2412763,v,1,0.31839952,,764520,1,2022-10-06_12h52.18.054,motorsequenceexperiment3,2022.2.2,60.36327476
50,c,10,2,42,2,,,,,116.5732843,117.5733285,117.5733285,117.5733285,117.5733285,117.5733285,118.5743917,118.5743917,c,1,0.31885062,,764520,1,2022-10-06_12h52.18.054,motorsequenceexperiment3,2022.2.2,60.36327476
-150,z,10,3,43,3,,,,,118.9065608,119.9067776,119.9067776,119.9067776,119.9067776,119.9067776,120.9075898,120.9075898,z,1,0.384123439,,764520,1,2022-10-06_12h52.18.054,motorsequenceexperiment3,2022.2.2,60.36327476
-50,x,11,0,44,0,,,,,121.3065912,122.3066175,122.3066175,122.3066175,122.3066175,122.3066175,123.3076941,123.3076941,x,1,0.383996751,,764520,1,2022-10-06_12h52.18.054,motorsequenceexperiment3,2022.2.2,60.36327476
150,v,11,1,45,1,,,,,123.7063305,124.7073251,124.7073251,124.7073251,124.7073251,124.7073251,125.7065367,125.7065367,v,1,0.336092614,,764520,1,2022-10-06_12h52.18.054,motorsequenceexperiment3,2022.2.2,60.36327476
50,c,11,2,46,2,,,,,126.0564182,127.05666,127.05666,127.05666,127.05666,127.05666,128.0569425,128.0569425,c,1,0.318234514,,764520,1,2022-10-06_12h52.18.054,motorsequenceexperiment3,2022.2.2,60.36327476
-150,z,11,3,47,3,,,,,128.3897309,129.3899512,129.3899512,129.3899512,129.3899512,129.3899512,130.3903882,130.3903882,z,1,0.384869477,,764520,1,2022-10-06_12h52.18.054,motorsequenceexperiment3,2022.2.2,60.36327476
-50,x,12,0,48,0,,,,,130.7897872,131.7896999,131.7896999,131.7896999,131.7896999,131.7896999,132.7905448,132.7905448,x,1,0.334642624,,764520,1,2022-10-06_12h52.18.054,motorsequenceexperiment3,2022.2.2,60.36327476
150,v,12,1,49,1,,,,,133.1398142,134.139869,134.139869,134.139869,134.139869,134.139869,135.1397637,135.1397637,v,1,0.417167786,,764520,1,2022-10-06_12h52.18.054,motorsequenceexperiment3,2022.2.2,60.36327476
50,c,12,2,50,2,,,,,135.573679,136.5730064,136.5730064,136.5730064,136.5730064,136.5730064,137.5728668,137.5728668,c,1,0.335403224,,764520,1,2022-10-06_12h52.18.054,motorsequenceexperiment3,2022.2.2,60.36327476
-150,z,12,3,51,3,,,,,137.9231529,138.9234621,138.9234621,138.9234621,138.9234621,138.9234621,139.9236767,139.9236767,z,1,0.552933962,,764520,1,2022-10-06_12h52.18.054,motorsequenceexperiment3,2022.2.2,60.36327476
-50,x,13,0,52,0,,,,,140.4893272,141.4899564,141.4899564,141.4899564,141.4899564,141.4899564,142.4896287,142.4896287,x,1,0.435201763,,764520,1,2022-10-06_12h52.18.054,motorsequenceexperiment3,2022.2.2,60.36327476
150,v,13,1,53,1,,,,,142.939616,143.9396761,143.9396761,143.9396761,143.9396761,143.9396761,144.9402945,144.9402945,v,1,0.28561518,,764520,1,2022-10-06_12h52.18.054,motorsequenceexperiment3,2022.2.2,60.36327476
50,c,13,2,54,2,,,,,145.23968,146.239578,146.239578,146.239578,146.239578,146.239578,147.2402157,147.2402157,c,1,0.385807338,,764520,1,2022-10-06_12h52.18.054,motorsequenceexperiment3,2022.2.2,60.36327476
-150,z,13,3,55,3,,,,,147.6392227,148.6394719,148.6394719,148.6394719,148.6394719,148.6394719,149.6406213,149.6406213,z,1,0.350569991,,764520,1,2022-10-06_12h52.18.054,motorsequenceexperiment3,2022.2.2,60.36327476
-50,x,14,0,56,0,,,,,150.0062179,151.0062346,151.0062346,151.0062346,151.0062346,151.0062346,152.0072607,152.0072607,x,1,0.451015376,,764520,1,2022-10-06_12h52.18.054,motorsequenceexperiment3,2022.2.2,60.36327476
150,v,14,1,57,1,,,,,152.472828,153.4736245,153.4736245,153.4736245,153.4736245,153.4736245,154.4733258,154.4733258,v,1,0.33589252,,764520,1,2022-10-06_12h52.18.054,motorsequenceexperiment3,2022.2.2,60.36327476
50,c,14,2,58,2,,,,,154.8225203,155.822822,155.822822,155.822822,155.822822,155.822822,156.8239436,156.8239436,c,1,0.517312918,,764520,1,2022-10-06_12h52.18.054,motorsequenceexperiment3,2022.2.2,60.36327476
-150,z,14,3,59,3,,,,,157.3559836,158.3561015,158.3561015,158.3561015,158.3561015,158.3561015,159.3568122,159.3568122,z,1,0.535468071,,764520,1,2022-10-06_12h52.18.054,motorsequenceexperiment3,2022.2.2,60.36327476
-50,x,15,0,60,0,,,,,159.9064627,160.9062338,160.9062338,160.9062338,160.9062338,160.9062338,161.9067478,161.9067478,x,1,0.451910658,,764520,1,2022-10-06_12h52.18.054,motorsequenceexperiment3,2022.2.2,60.36327476
150,v,15,1,61,1,,,,,162.37329,163.3728584,163.3728584,163.3728584,163.3728584,163.3728584,164.3730436,164.3730436,v,1,0.354068679,,764520,1,2022-10-06_12h52.18.054,motorsequenceexperiment3,2022.2.2,60.36327476
50,c,15,2,62,2,,,,,164.7388236,165.7393027,165.7393027,165.7393027,165.7393027,165.7393027,166.73999,166.73999,c,1,0.668052636,,764520,1,2022-10-06_12h52.18.054,motorsequenceexperiment3,2022.2.2,60.36327476
-150,z,15,3,63,3,,,,,167.422589,168.423035,168.423035,168.423035,168.423035,168.423035,169.4225937,169.4225937,z,1,0.401929575,,764520,1,2022-10-06_12h52.18.054,motorsequenceexperiment3,2022.2.2,60.36327476
-50,x,16,0,64,0,,,,,169.8393317,170.8571756,170.8571756,170.8571756,170.8571756,170.8571756,171.8397704,171.8397704,x,1,0.521620109,,764520,1,2022-10-06_12h52.18.054,motorsequenceexperiment3,2022.2.2,60.36327476
150,v,16,1,65,1,,,,,172.3752481,173.3892648,173.3892648,173.3892648,173.3892648,173.4054427,174.3738044,174.3738044,v,1,0.338660269,,764520,1,2022-10-06_12h52.18.054,motorsequenceexperiment3,2022.2.2,60.36327476
50,c,16,2,66,2,,,,,174.7403895,175.72238,175.72238,175.72238,175.72238,175.7732799,176.7233278,176.7233278,c,1,0.301160696,,764520,1,2022-10-06_12h52.18.054,motorsequenceexperiment3,2022.2.2,60.36327476
-150,z,16,3,67,3,,,,,177.0412124,178.0573372,178.0573372,178.0573372,178.0573372,178.0745179,179.0569936,179.0569936,z,1,0.436062699,,764520,1,2022-10-06_12h52.18.054,motorsequenceexperiment3,2022.2.2,60.36327476
-50,x,17,0,68,0,,,,,179.506071,180.5053186,180.5053186,180.5053186,180.5053186,180.5053186,181.5397655,181.5397655,x,1,0.353746283,,764520,1,2022-10-06_12h52.18.054,motorsequenceexperiment3,2022.2.2,60.36327476
150,v,17,1,69,1,,,,,181.9067009,182.9054639,182.9054639,182.9054639,182.9054639,182.9054639,183.905328,183.905328,v,1,0.320984278,,764520,1,2022-10-06_12h52.18.054,motorsequenceexperiment3,2022.2.2,60.36327476
50,c,17,2,70,2,,,,,184.2395209,185.2398628,185.2398628,185.2398628,185.2398628,185.2398628,186.2405526,186.2405526,c,1,0.366686494,,764520,1,2022-10-06_12h52.18.054,motorsequenceexperiment3,2022.2.2,60.36327476
-150,z,17,3,71,3,,,,,186.6222393,187.6227245,187.6227245,187.6227245,187.6227245,187.6227245,188.6219308,188.6219308,z,1,0.652256531,,764520,1,2022-10-06_12h52.18.054,motorsequenceexperiment3,2022.2.2,60.36327476
-50,x,18,0,72,0,,,,,189.2902031,190.2894614,190.2894614,190.2894614,190.2894614,190.2894614,191.2895069,191.2895069,x,1,0.31802978,,764520,1,2022-10-06_12h52.18.054,motorsequenceexperiment3,2022.2.2,60.36327476
150,v,18,1,73,1,,,,,191.6222481,192.622401,192.622401,192.622401,192.622401,192.622401,193.6241054,193.6241054,v,1,0.333171657,,764520,1,2022-10-06_12h52.18.054,motorsequenceexperiment3,2022.2.2,60.36327476
50,c,18,2,74,2,,,,,193.9719761,194.9722506,194.9722506,194.9722506,194.9722506,194.9722506,195.972921,195.972921,c,1,0.35096917,,764520,1,2022-10-06_12h52.18.054,motorsequenceexperiment3,2022.2.2,60.36327476
-150,z,18,3,75,3,,,,,196.3399753,197.3568118,197.3568118,197.3568118,197.3568118,197.3568118,198.3399038,198.3399038,z,1,0.417600112,,764520,1,2022-10-06_12h52.18.054,motorsequenceexperiment3,2022.2.2,60.36327476
-50,x,19,0,76,0,,,,,198.7721374,199.7728119,199.7728119,199.7728119,199.7728119,199.7728119,200.7721112,200.7721112,x,1,0.485111517,,764520,1,2022-10-06_12h52.18.054,motorsequenceexperiment3,2022.2.2,60.36327476
150,v,19,1,77,1,,,,,201.2722114,202.2724761,202.2724761,202.2724761,202.2724761,202.2724761,203.2729316,203.2729316,v,1,0.451097308,,764520,1,2022-10-06_12h52.18.054,motorsequenceexperiment3,2022.2.2,60.36327476
50,c,19,2,78,2,,,,,203.7399216,204.739196,204.739196,204.739196,204.739196,204.739196,205.7399817,205.7399817,c,1,0.349992624,,764520,1,2022-10-06_12h52.18.054,motorsequenceexperiment3,2022.2.2,60.36327476
-150,z,19,3,79,3,,,,,206.1054375,207.1054286,207.1054286,207.1054286,207.1054286,207.1054286,208.1060938,208.1060938,z,1,0.400609835,,764520,1,2022-10-06_12h52.18.054,motorsequenceexperiment3,2022.2.2,60.36327476
-50,x,20,0,80,0,,,,,208.5222473,209.5221393,209.5221393,209.5221393,209.5221393,209.5221393,210.5222678,210.5222678,x,1,0.302934287,,764520,1,2022-10-06_12h52.18.054,motorsequenceexperiment3,2022.2.2,60.36327476
150,v,20,1,81,1,,,,,210.8384746,211.8404472,211.8404472,211.8404472,211.8404472,211.8404472,212.8393497,212.8393497,v,1,0.318235607,,764520,1,2022-10-06_12h52.18.054,motorsequenceexperiment3,2022.2.2,60.36327476
50,c,20,2,82,2,,,,,213.1722156,214.1718593,214.1718593,214.1718593,214.1718593,214.1718593,215.1724494,215.1724494,c,1,0.334238421,,764520,1,2022-10-06_12h52.18.054,motorsequenceexperiment3,2022.2.2,60.36327476
-150,z,20,3,83,3,,,,,215.5222059,216.5226643,216.5226643,216.5226643,216.5226643,216.5226643,217.5218021,217.5218021,z,1,0.402885186,,764520,1,2022-10-06_12h52.18.054,motorsequenceexperiment3,2022.2.2,60.36327476
-50,x,21,0,84,0,,,,,217.9386325,218.9386213,218.9386213,218.9386213,218.9386213,218.9386213,219.956814,219.956814,x,1,0.517122009,,764520,1,2022-10-06_12h52.18.054,motorsequenceexperiment3,2022.2.2,60.36327476
150,v,21,1,85,1,,,,,220.4883194,221.4888292,221.4888292,221.4888292,221.4888292,221.4888292,222.4909144,222.4909144,v,1,0.300238979,,764520,1,2022-10-06_12h52.18.054,motorsequenceexperiment3,2022.2.2,60.36327476
50,c,21,2,86,2,,,,,222.805051,223.8076416,223.8076416,223.8076416,223.8076416,223.8076416,224.8056736,224.8056736,z,0,2.651076753,225.8050458,764520,1,2022-10-06_12h52.18.054,motorsequenceexperiment3,2022.2.2,60.36327476
-150,z,21,3,87,3,,,,,227.4716795,228.4718264,228.4718264,228.4718264,228.4718264,228.4718264,229.471796,229.471796,z,1,0.738935813,,764520,1,2022-10-06_12h52.18.054,motorsequenceexperiment3,2022.2.2,60.36327476
-50,x,22,0,88,0,,,,,230.2215278,231.2218538,231.2218538,231.2218538,231.2218538,231.2218538,232.2229745,232.2229745,x,1,0.634015927,,764520,1,2022-10-06_12h52.18.054,motorsequenceexperiment3,2022.2.2,60.36327476
150,v,22,1,89,1,,,,,232.8719262,233.8725993,233.8725993,233.8725993,233.8725993,233.8725993,234.8717682,234.8717682,v,1,0.401074514,,764520,1,2022-10-06_12h52.18.054,motorsequenceexperiment3,2022.2.2,60.36327476
50,c,22,2,90,2,,,,,235.2893971,236.3064778,236.3064778,236.3064778,236.3064778,236.3221196,237.2885522,237.2885522,c,1,0.268149368,,764520,1,2022-10-06_12h52.18.054,motorsequenceexperiment3,2022.2.2,60.36327476
-150,z,22,3,91,3,,,,,237.5717756,238.5718304,238.5718304,238.5718304,238.5718304,238.5718304,239.5719045,239.5719045,z,1,0.319480087,,764520,1,2022-10-06_12h52.18.054,motorsequenceexperiment3,2022.2.2,60.36327476
-50,x,23,0,92,0,,,,,239.9048798,240.9050652,240.9050652,240.9050652,240.9050652,240.9050652,241.9055523,241.9055523,x,1,0.269044909,,764520,1,2022-10-06_12h52.18.054,motorsequenceexperiment3,2022.2.2,60.36327476
150,v,23,1,93,1,,,,,242.1879464,243.1886729,243.1886729,243.1886729,243.1886729,243.1886729,244.1888377,244.1888377,v,1,0.317989139,,764520,1,2022-10-06_12h52.18.054,motorsequenceexperiment3,2022.2.2,60.36327476
50,c,23,2,94,2,,,,,244.5216331,245.5215603,245.5215603,245.5215603,245.5215603,245.5215603,246.5217576,246.5217576,c,1,0.319318936,,764520,1,2022-10-06_12h52.18.054,motorsequenceexperiment3,2022.2.2,60.36327476
-150,z,23,3,95,3,,,,,246.8545637,247.8551458,247.8551458,247.8551458,247.8551458,247.8551458,248.8548009,248.8548009,z,1,0.351971555,,764520,1,2022-10-06_12h52.18.054,motorsequenceexperiment3,2022.2.2,60.36327476
150,v,,,,,0,0,0,1,249.2393203,250.222342,250.222342,250.222342,250.222342,250.2382497,251.2215401,251.2215401,v,1,1.1361467,252.2211906,764520,1,2022-10-06_12h52.18.054,motorsequenceexperiment3,2022.2.2,60.36327476
-150,z,,,,,0,1,1,3,252.3710915,253.3722964,253.3722964,253.3722964,253.3722964,253.3722964,254.371662,254.371662,z,1,0.684930484,,764520,1,2022-10-06_12h52.18.054,motorsequenceexperiment3,2022.2.2,60.36327476
150,v,,,,,0,2,2,1,255.0714363,256.0725965,256.0725965,256.0725965,256.0725965,256.0725965,257.071453,257.071453,v,1,0.819174846,,764520,1,2022-10-06_12h52.18.054,motorsequenceexperiment3,2022.2.2,60.36327476
-50,x,,,,,0,3,3,0,257.9045144,258.9048542,258.9048542,258.9048542,258.9048542,258.9048542,259.9057413,259.9057413,x,1,1.300947027,260.9212674,764520,1,2022-10-06_12h52.18.054,motorsequenceexperiment3,2022.2.2,60.36327476
50,c,,,,,1,0,4,2,261.2213884,262.2212499,262.2212499,262.2212499,262.2212499,262.2212499,263.2218744,263.2218744,c,1,0.801096013,,764520,1,2022-10-06_12h52.18.054,motorsequenceexperiment3,2022.2.2,60.36327476
-50,x,,,,,1,1,5,0,264.03904,265.0379976,265.0379976,265.0379976,265.0379976,265.0379976,266.0376603,266.0376603,x,1,0.73652097,,764520,1,2022-10-06_12h52.18.054,motorsequenceexperiment3,2022.2.2,60.36327476
150,v,,,,,1,2,6,1,266.7880492,267.7882387,267.7882387,267.7882387,267.7882387,267.7882387,268.7885993,268.7885993,v,1,0.634523496,,764520,1,2022-10-06_12h52.18.054,motorsequenceexperiment3,2022.2.2,60.36327476
-150,z,,,,,1,3,7,3,269.4387267,270.4385125,270.4385125,270.4385125,270.4385125,270.4385125,271.4389494,271.4389494,z,1,1.202073481,272.4542026,764520,1,2022-10-06_12h52.18.054,motorsequenceexperiment3,2022.2.2,60.36327476
150,v,,,,,2,0,8,1,272.654144,273.6545623,273.6545623,273.6545623,273.6545623,273.6545623,274.6545333,274.6545333,v,1,0.968373291,,764520,1,2022-10-06_12h52.18.054,motorsequenceexperiment3,2022.2.2,60.36327476
-150,z,,,,,2,1,9,3,275.6388079,276.6397078,276.6397078,276.6397078,276.6397078,276.6397078,277.6382225,277.6382225,z,1,0.584791452,,764520,1,2022-10-06_12h52.18.054,motorsequenceexperiment3,2022.2.2,60.36327476
150,v,,,,,2,2,10,1,278.2382002,279.2380494,279.2380494,279.2380494,279.2380494,279.2380494,280.2378275,280.2378275,v,1,0.535432596,,764520,1,2022-10-06_12h52.18.054,motorsequenceexperiment3,2022.2.2,60.36327476
150,v,,,,,2,3,11,1,280.7879763,281.7888989,281.7888989,281.7888989,281.7888989,281.7888989,282.7872317,282.7872317,v,1,0.536050962,,764520,1,2022-10-06_12h52.18.054,motorsequenceexperiment3,2022.2.2,60.36327476
150,v,,,,,3,0,12,1,283.337643,284.3379123,284.3379123,284.3379123,284.3379123,284.3379123,285.338807,285.338807,v,1,0.484177419,,764520,1,2022-10-06_12h52.18.054,motorsequenceexperiment3,2022.2.2,60.36327476
50,c,,,,,3,1,13,2,285.8385277,286.8378286,286.8378286,286.8378286,286.8378286,286.8378286,287.8390139,287.8390139,c,1,0.867112474,,764520,1,2022-10-06_12h52.18.054,motorsequenceexperiment3,2022.2.2,60.36327476
-150,z,,,,,3,2,14,3,288.7211311,289.7212081,289.7212081,289.7212081,289.7212081,289.7212081,290.722026,290.722026,z,1,0.535753011,,764520,1,2022-10-06_12h52.18.054,motorsequenceexperiment3,2022.2.2,60.36327476
-50,x,,,,,3,3,15,0,291.2705845,292.2710573,292.2710573,292.2710573,292.2710573,292.2710573,293.2711196,293.2711196,x,1,0.819878763,,764520,1,2022-10-06_12h52.18.054,motorsequenceexperiment3,2022.2.2,60.36327476
-150,z,,,,,4,0,16,3,294.1040111,295.1043802,295.1043802,295.1043802,295.1043802,295.1043802,296.1049579,296.1049579,z,1,0.551054689,,764520,1,2022-10-06_12h52.18.054,motorsequenceexperiment3,2022.2.2,60.36327476
150,v,,,,,4,1,17,1,296.6706321,297.6708753,297.6708753,297.6708753,297.6708753,297.6708753,298.6717378,298.6717378,v,1,0.567955033,,764520,1,2022-10-06_12h52.18.054,motorsequenceexperiment3,2022.2.2,60.36327476
150,v,,,,,4,2,18,1,299.2541937,300.2543361,300.2543361,300.2543361,300.2543361,300.2543361,301.2548337,301.2548337,v,1,0.617713659,,764520,1,2022-10-06_12h52.18.054,motorsequenceexperiment3,2022.2.2,60.36327476
150,v,,,,,4,3,19,1,301.8885912,302.8884481,302.8884481,302.8884481,302.8884481,302.8884481,303.8885824,303.8885824,v,1,0.534412924,,764520,1,2022-10-06_12h52.18.054,motorsequenceexperiment3,2022.2.2,60.36327476
50,c,,,,,5,0,20,2,304.4390407,305.4384142,305.4384142,305.4384142,305.4384142,305.4541541,306.4373044,306.4373044,c,1,0.81863811,,764520,1,2022-10-06_12h52.18.054,motorsequenceexperiment3,2022.2.2,60.36327476
50,c,,,,,5,1,21,2,307.2707841,308.2707494,308.2707494,308.2707494,308.2707494,308.2707494,309.2713755,309.2713755,c,1,0.501661174,,764520,1,2022-10-06_12h52.18.054,motorsequenceexperiment3,2022.2.2,60.36327476
-150,z,,,,,5,2,22,3,309.787714,310.7875491,310.7875491,310.7875491,310.7875491,310.7875491,311.7877534,311.7877534,z,1,0.819458871,,764520,1,2022-10-06_12h52.18.054,motorsequenceexperiment3,2022.2.2,60.36327476
-50,x,,,,,5,3,23,0,312.6201943,313.6206383,313.6206383,313.6206383,313.6206383,313.6206383,314.6207675,314.6207675,x,1,0.551617165,,764520,1,2022-10-06_12h52.18.054,motorsequenceexperiment3,2022.2.2,60.36327476
-150,z,,,,,6,0,24,3,315.1883709,316.1876468,316.1876468,316.1876468,316.1876468,316.1876468,317.1876794,317.1876794,z,1,0.636005203,,764520,1,2022-10-06_12h52.18.054,motorsequenceexperiment3,2022.2.2,60.36327476
-150,z,,,,,6,1,25,3,317.8364314,318.8373064,318.8373064,318.8373064,318.8373064,318.8373064,319.8389855,319.8389855,z,1,0.517667814,,764520,1,2022-10-06_12h52.18.054,motorsequenceexperiment3,2022.2.2,60.36327476
-50,x,,,,,6,2,26,0,320.3702779,321.3711996,321.3711996,321.3711996,321.3711996,321.3711996,322.3703303,322.3703303,x,1,0.618519362,,764520,1,2022-10-06_12h52.18.054,motorsequenceexperiment3,2022.2.2,60.36327476
-150,z,,,,,6,3,27,3,323.0039274,324.0039473,324.0039473,324.0039473,324.0039473,324.0039473,325.0036552,325.0036552,z,1,0.734364326,,764520,1,2022-10-06_12h52.18.054,motorsequenceexperiment3,2022.2.2,60.36327476
-150,z,,,,,7,0,28,3,325.7538553,326.7538965,326.7538965,326.7538965,326.7538965,326.7538965,327.7537862,327.7537862,z,1,0.568613517,,764520,1,2022-10-06_12h52.18.054,motorsequenceexperiment3,2022.2.2,60.36327476
-50,x,,,,,7,1,29,0,328.3371638,329.3374762,329.3374762,329.3374762,329.3374762,329.3374762,330.3377283,330.3377283,x,1,0.769055239,,764520,1,2022-10-06_12h52.18.054,motorsequenceexperiment3,2022.2.2,60.36327476
-50,x,,,,,7,2,30,0,331.1204999,332.120661,332.120661,332.120661,332.120661,332.120661,333.1204781,333.1204781,x,1,0.635431909,,764520,1,2022-10-06_12h52.18.054,motorsequenceexperiment3,2022.2.2,60.36327476
150,v,,,,,7,3,31,1,333.7707121,334.7702248,334.7702248,334.7702248,334.7702248,334.7702248,335.7711066,335.7711066,v,1,0.716991236,,764520,1,2022-10-06_12h52.18.054,motorsequenceexperiment3,2022.2.2,60.36327476
-50,x,,,,,8,0,32,0,336.5037961,337.5036584,337.5036584,337.5036584,337.5036584,337.5036584,338.5049851,338.5049851,x,1,0.668026165,,764520,1,2022-10-06_12h52.18.054,motorsequenceexperiment3,2022.2.2,60.36327476
-50,x,,,,,8,1,33,0,339.1878321,340.1869258,340.1869258,340.1869258,340.1869258,340.1869258,341.1867818,341.1867818,x,1,0.553808257,,764520,1,2022-10-06_12h52.18.054,motorsequenceexperiment3,2022.2.2,60.36327476
50,c,,,,,8,2,34,2,341.7533285,342.7540483,342.7540483,342.7540483,342.7540483,342.7540483,343.7544838,343.7544838,c,1,1.384818783,344.7533674,764520,1,2022-10-06_12h52.18.054,motorsequenceexperiment3,2022.2.2,60.36327476
50,c,,,,,8,3,35,2,345.154479,346.1537206,346.1537206,346.1537206,346.1537206,346.1537206,347.1542744,347.1542744,c,1,1.234604758,348.1532626,764520,1,2022-10-06_12h52.18.054,motorsequenceexperiment3,2022.2.2,60.36327476
-150,z,,,,,9,0,36,3,348.4036375,349.403445,349.403445,349.403445,349.403445,349.403445,350.4041361,350.4041361,z,1,1.051390694,351.4197804,764520,1,2022-10-06_12h52.18.054,motorsequenceexperiment3,2022.2.2,60.36327476
-150,z,,,,,9,1,37,3,351.4699012,352.4702042,352.4702042,352.4702042,352.4702042,352.4702042,353.4707949,353.4707949,z,1,0.602248221,,764520,1,2022-10-06_12h52.18.054,motorsequenceexperiment3,2022.2.2,60.36327476
-50,x,,,,,9,2,38,0,354.0866965,355.0878449,355.0878449,355.0878449,355.0878449,355.0878449,356.0875252,356.0875252,x,1,4.017489677,357.0867882,764520,1,2022-10-06_12h52.18.054,motorsequenceexperiment3,2022.2.2,60.36327476
50,c,,,,,9,3,39,2,360.1199662,361.119889,361.119889,361.119889,361.119889,361.119889,362.1201967,362.1201967,c,1,0.635101073,,764520,1,2022-10-06_12h52.18.054,motorsequenceexperiment3,2022.2.2,60.36327476
-150,z,,,,,10,0,40,3,362.7699451,363.7701048,363.7701048,363.7701048,363.7701048,363.7701048,364.7703813,364.7703813,z,1,0.618185088,,764520,1,2022-10-06_12h52.18.054,motorsequenceexperiment3,2022.2.2,60.36327476
-50,x,,,,,10,1,41,0,365.4032772,366.40316,366.40316,366.40316,366.40316,366.40316,367.403755,367.403755,x,1,0.618304686,,764520,1,2022-10-06_12h52.18.054,motorsequenceexperiment3,2022.2.2,60.36327476
150,v,,,,,10,2,42,1,368.0381943,369.0375816,369.0375816,369.0375816,369.0375816,369.0375816,370.0386263,370.0386263,v,1,0.866442268,,764520,1,2022-10-06_12h52.18.054,motorsequenceexperiment3,2022.2.2,60.36327476
50,c,,,,,10,3,43,2,370.9198596,371.9198777,371.9198777,371.9198777,371.9198777,371.9198777,372.9100201,372.9100201,c,1,0.562924344,,764520,1,2022-10-06_12h52.18.054,motorsequenceexperiment3,2022.2.2,60.36327476
150,v,,,,,11,0,44,1,373.4869649,374.4867923,374.4867923,374.4867923,374.4867923,374.4867923,375.4865711,375.4865711,v,1,0.718801025,,764520,1,2022-10-06_12h52.18.054,motorsequenceexperiment3,2022.2.2,60.36327476
-150,z,,,,,11,1,45,3,376.2198175,377.2201307,377.2201307,377.2201307,377.2201307,377.2201307,378.2206941,378.2206941,z,1,0.589360035,,764520,1,2022-10-06_12h52.18.054,motorsequenceexperiment3,2022.2.2,60.36327476
50,c,,,,,11,2,46,2,378.8381951,379.820779,379.820779,379.820779,379.820779,379.8367973,380.8198969,380.8198969,c,1,0.568906259,,764520,1,2022-10-06_12h52.18.054,motorsequenceexperiment3,2022.2.2,60.36327476
-50,x,,,,,11,3,47,0,381.4029586,382.4031319,382.4031319,382.4031319,382.4031319,382.4031319,383.4038988,383.4038988,x,1,0.618677167,,764520,1,2022-10-06_12h52.18.054,motorsequenceexperiment3,2022.2.2,60.36327476
50,c,,,,,12,0,48,2,384.0361553,385.0365262,385.0365262,385.0365262,385.0365262,385.0365262,386.0370347,386.0370347,c,1,0.601606112,,764520,1,2022-10-06_12h52.18.054,motorsequenceexperiment3,2022.2.2,60.36327476
-50,x,,,,,12,1,49,0,386.6528792,387.6534517,387.6534517,387.6534517,387.6534517,387.6534517,388.6527996,388.6527996,x,1,0.521292694,,764520,1,2022-10-06_12h52.18.054,motorsequenceexperiment3,2022.2.2,60.36327476
-50,x,,,,,12,2,50,0,389.1857289,390.1864653,390.1864653,390.1864653,390.1864653,390.1864653,391.1871863,391.1871863,x,1,0.552236674,,764520,1,2022-10-06_12h52.18.054,motorsequenceexperiment3,2022.2.2,60.36327476
-50,x,,,,,12,3,51,0,391.7527992,392.7531538,392.7531538,392.7531538,392.7531538,392.7531538,393.7541196,393.7541196,x,1,0.520026597,,764520,1,2022-10-06_12h52.18.054,motorsequenceexperiment3,2022.2.2,60.36327476
50,c,,,,,13,0,52,2,394.2870805,395.2864768,395.2864768,395.2864768,395.2864768,395.2864768,396.2867593,396.2867593,c,1,0.685114406,,764520,1,2022-10-06_12h52.18.054,motorsequenceexperiment3,2022.2.2,60.36327476
150,v,,,,,13,1,53,1,396.9859472,397.9864446,397.9864446,397.9864446,397.9864446,397.9864446,398.9863606,398.9863606,v,1,0.753292844,,764520,1,2022-10-06_12h52.18.054,motorsequenceexperiment3,2022.2.2,60.36327476
-150,z,,,,,13,2,54,3,399.7526516,400.7528293,400.7528293,400.7528293,400.7528293,400.7528293,401.7525414,401.7525414,x,0,0.620799234,,764520,1,2022-10-06_12h52.18.054,motorsequenceexperiment3,2022.2.2,60.36327476
50,c,,,,,13,3,55,2,402.3867017,403.3873877,403.3873877,403.3873877,403.3873877,403.3873877,404.3877078,404.3877078,c,1,0.884525864,,764520,1,2022-10-06_12h52.18.054,motorsequenceexperiment3,2022.2.2,60.36327476
50,c,,,,,14,0,56,2,405.2853818,406.2862933,406.2862933,406.2862933,406.2862933,406.2862933,407.2866734,407.2866734,c,1,0.553033301,,764520,1,2022-10-06_12h52.18.054,motorsequenceexperiment3,2022.2.2,60.36327476
150,v,,,,,14,1,57,1,407.8525012,408.8529144,408.8529144,408.8529144,408.8529144,408.8529144,409.8534441,409.8534441,v,1,0.718030782,,764520,1,2022-10-06_12h52.18.054,motorsequenceexperiment3,2022.2.2,60.36327476
50,c,,,,,14,2,58,2,410.5861025,411.5865128,411.5865128,411.5865128,411.5865128,411.5865128,412.586821,412.586821,c,1,0.667742883,,764520,1,2022-10-06_12h52.18.054,motorsequenceexperiment3,2022.2.2,60.36327476
-50,x,,,,,14,3,59,0,413.2692882,414.2694304,414.2694304,414.2694304,414.2694304,414.2694304,415.2704477,415.2704477,x,1,0.584096646,,764520,1,2022-10-06_12h52.18.054,motorsequenceexperiment3,2022.2.2,60.36327476
50,c,,,,,15,0,60,2,415.8691034,416.8693969,416.8693969,416.8693969,416.8693969,416.8693969,417.8701307,417.8701307,v,0,0.584193395,,764520,1,2022-10-06_12h52.18.054,motorsequenceexperiment3,2022.2.2,60.36327476
50,c,,,,,15,1,61,2,418.4692489,419.4693873,419.4693873,419.4693873,419.4693873,419.4693873,420.46988,420.46988,c,1,0.518903073,,764520,1,2022-10-06_12h52.18.054,motorsequenceexperiment3,2022.2.2,60.36327476
150,v,,,,,15,2,62,1,421.0023317,422.0027228,422.0027228,422.0027228,422.0027228,422.0027228,423.00284,423.00284,v,1,0.684896793,,764520,1,2022-10-06_12h52.18.054,motorsequenceexperiment3,2022.2.2,60.36327476
-150,z,,,,,15,3,63,3,423.7027554,424.7026099,424.7026099,424.7026099,424.7026099,424.7026099,425.7025036,425.7025036,z,1,0.685480214,,764520,1,2022-10-06_12h52.18.054,motorsequenceexperiment3,2022.2.2,60.36327476
150,v,,,,,16,0,64,1,426.4022728,427.4023334,427.4023334,427.4023334,427.4023334,427.4023334,428.4038591,428.4038591,v,1,0.800537989,,764520,1,2022-10-06_12h52.18.054,motorsequenceexperiment3,2022.2.2,60.36327476
150,v,,,,,16,1,65,1,429.219188,430.2191648,430.2191648,430.2191648,430.2191648,430.2191648,431.2195953,431.2195953,v,1,0.635263036,,764520,1,2022-10-06_12h52.18.054,motorsequenceexperiment3,2022.2.2,60.36327476
-50,x,,,,,16,2,66,0,431.8691391,432.8693784,432.8693784,432.8693784,432.8693784,432.8693784,433.8697376,433.8697376,x,1,1.018896937,434.8688134,764520,1,2022-10-06_12h52.18.054,motorsequenceexperiment3,2022.2.2,60.36327476
150,v,,,,,16,3,67,1,434.9021091,435.9024614,435.9024614,435.9024614,435.9024614,435.9024614,436.9031577,436.9031577,v,1,0.801388496,,764520,1,2022-10-06_12h52.18.054,motorsequenceexperiment3,2022.2.2,60.36327476
-50,x,,,,,17,0,68,0,437.7189954,438.7192942,438.7192942,438.7192942,438.7192942,438.7192942,439.7187928,439.7187928,x,1,0.935978248,,764520,1,2022-10-06_12h52.18.054,motorsequenceexperiment3,2022.2.2,60.36327476
-150,z,,,,,17,1,69,3,440.6688215,441.6690154,441.6690154,441.6690154,441.6690154,441.6690154,442.6693723,442.6693723,z,1,0.76964787,,764520,1,2022-10-06_12h52.18.054,motorsequenceexperiment3,2022.2.2,60.36327476
50,c,,,,,17,2,70,2,443.4518756,444.452387,444.452387,444.452387,444.452387,444.452387,445.4528152,445.4528152,c,1,0.801272447,,764520,1,2022-10-06_12h52.18.054,motorsequenceexperiment3,2022.2.2,60.36327476
-50,x,,,,,17,3,71,0,446.2690154,447.2691957,447.2691957,447.2691957,447.2691957,447.2691957,448.2695553,448.2695553,x,1,0.584612537,,764520,1,2022-10-06_12h52.18.054,motorsequenceexperiment3,2022.2.2,60.36327476
-50,x,,,,,18,0,72,0,448.8691728,449.8691109,449.8691109,449.8691109,449.8691109,449.8691109,450.869587,450.869587,x,1,1.501547266,451.8690408,764520,1,2022-10-06_12h52.18.054,motorsequenceexperiment3,2022.2.2,60.36327476
-150,z,,,,,18,1,73,3,452.3851496,453.3857821,453.3857821,453.3857821,453.3857821,453.3857821,454.3862267,454.3862267,z,1,0.567956451,,764520,1,2022-10-06_12h52.18.054,motorsequenceexperiment3,2022.2.2,60.36327476
-150,z,,,,,18,2,74,3,454.9688196,455.9690315,455.9690315,455.9690315,455.9690315,455.9690315,456.9698703,456.9698703,z,1,0.585446616,,764520,1,2022-10-06_12h52.18.054,motorsequenceexperiment3,2022.2.2,60.36327476
50,c,,,,,18,3,75,2,457.5683945,458.5689677,458.5689677,458.5689677,458.5689677,458.5689677,459.5690183,459.5690183,c,1,0.768533701,,764520,1,2022-10-06_12h52.18.054,motorsequenceexperiment3,2022.2.2,60.36327476
150,v,,,,,19,0,76,1,460.3520117,461.3523324,461.3523324,461.3523324,461.3523324,461.3523324,462.3528377,462.3528377,v,1,0.818687805,,764520,1,2022-10-06_12h52.18.054,motorsequenceexperiment3,2022.2.2,60.36327476
50,c,,,,,19,1,77,2,463.1858862,464.1859165,464.1859165,464.1859165,464.1859165,464.1859165,465.1860687,465.1860687,c,1,0.567797275,,764520,1,2022-10-06_12h52.18.054,motorsequenceexperiment3,2022.2.2,60.36327476
50,c,,,,,19,2,78,2,465.7686156,466.7685817,466.7685817,466.7685817,466.7685817,466.7685817,467.7693333,467.7693333,c,1,0.78469164,,764520,1,2022-10-06_12h52.18.054,motorsequenceexperiment3,2022.2.2,60.36327476
-50,x,,,,,19,3,79,0,468.5686553,469.5686716,469.5686716,469.5686716,469.5686716,469.5686716,470.5686622,470.5686622,x,1,0.570495467,,764520,1,2022-10-06_12h52.18.054,motorsequenceexperiment3,2022.2.2,60.36327476
150,v,,,,,20,0,80,1,471.1527013,472.1524649,472.1524649,472.1524649,472.1524649,472.1524649,473.1519395,473.1519395,v,1,0.768214538,,764520,1,2022-10-06_12h52.18.054,motorsequenceexperiment3,2022.2.2,60.36327476
-150,z,,,,,20,1,81,3,473.9353624,474.935599,474.935599,474.935599,474.935599,474.935599,475.9357841,475.9357841,z,1,0.885588115,,764520,1,2022-10-06_12h52.18.054,motorsequenceexperiment3,2022.2.2,60.36327476
50,c,,,,,20,2,82,2,476.8350551,477.8356257,477.8356257,477.8356257,477.8356257,477.8356257,478.8354282,478.8354282,c,1,1.569904763,479.8356628,764520,1,2022-10-06_12h52.18.054,motorsequenceexperiment3,2022.2.2,60.36327476
-150,z,,,,,20,3,83,3,480.4182119,481.4188289,481.4188289,481.4188289,481.4188289,481.4188289,482.4186601,482.4186601,z,1,0.884540364,,764520,1,2022-10-06_12h52.18.054,motorsequenceexperiment3,2022.2.2,60.36327476
-50,x,,,,,21,0,84,0,483.3181057,484.3182061,484.3182061,484.3182061,484.3182061,484.3182061,485.3180517,485.3180517,x,1,0.986287773,486.3187153,764520,1,2022-10-06_12h52.18.054,motorsequenceexperiment3,2022.2.2,60.36327476
150,v,,,,,21,1,85,1,486.3187153,487.3194497,487.3194497,487.3194497,487.3194497,487.3194497,488.318578,488.318578,v,1,0.855045054,,764520,1,2022-10-06_12h52.18.054,motorsequenceexperiment3,2022.2.2,60.36327476
-50,x,,,,,21,2,86,0,489.2025852,490.1868107,490.1868107,490.1868107,490.1868107,490.2015248,491.1860906,491.1860906,x,1,0.668914469,,764520,1,2022-10-06_12h52.18.054,motorsequenceexperiment3,2022.2.2,60.36327476
-150,z,,,,,21,3,87,3,491.8679548,492.868394,492.868394,492.868394,492.868394,492.868394,493.8687984,493.8687984,z,1,0.686649627,,764520,1,2022-10-06_12h52.18.054,motorsequenceexperiment3,2022.2.2,60.36327476
50,c,,,,,22,0,88,2,494.5682002,495.5682701,495.5682701,495.5682701,495.5682701,495.5682701,496.5687654,496.5687654,c,1,0.7348082,,764520,1,2022-10-06_12h52.18.054,motorsequenceexperiment3,2022.2.2,60.36327476
-150,z,,,,,22,1,89,3,497.3179978,498.3191669,498.3191669,498.3191669,498.3191669,498.3191669,499.3182229,499.3182229,z,1,0.520901438,,764520,1,2022-10-06_12h52.18.054,motorsequenceexperiment3,2022.2.2,60.36327476
50,c,,,,,22,2,90,2,499.850946,500.8512157,500.8512157,500.8512157,500.8512157,500.8512157,501.8524893,501.8524893,c,1,0.63586925,,764520,1,2022-10-06_12h52.18.054,motorsequenceexperiment3,2022.2.2,60.36327476
50,c,,,,,22,3,91,2,502.501176,503.5025476,503.5025476,503.5025476,503.5025476,503.5025476,504.5020598,504.5020598,c,1,0.501989933,,764520,1,2022-10-06_12h52.18.054,motorsequenceexperiment3,2022.2.2,60.36327476
150,v,,,,,23,0,92,1,505.017896,506.0186124,506.0186124,506.0186124,506.0186124,506.0186124,507.017819,507.017819,v,1,0.735504031,,764520,1,2022-10-06_12h52.18.054,motorsequenceexperiment3,2022.2.2,60.36327476
150,v,,,,,23,1,93,1,507.768094,508.7681337,508.7681337,508.7681337,508.7681337,508.7681337,509.7681037,509.7681037,v,1,0.785541986,,764520,1,2022-10-06_12h52.18.054,motorsequenceexperiment3,2022.2.2,60.36327476
-50,x,,,,,23,2,94,0,510.5677864,511.5685942,511.5685942,511.5685942,511.5685942,511.5685942,512.5680332,512.5680332,x,1,1.002332982,513.5847823,764520,1,2022-10-06_12h52.18.054,motorsequenceexperiment3,2022.2.2,60.36327476
-150,z,,,,,23,3,95,3,513.5847823,514.5857032,514.5857032,514.5857032,514.5857032,514.5857032,515.5843378,515.5843378,z,1,0.635674276,,764520,1,2022-10-06_12h52.18.054,motorsequenceexperiment3,2022.2.2,60.36327476